{
  "internal_node_id": {
    "Description": "jsPsych internal node identifier"
  },
  "responses": {
    "Description": "Response to the survey's one question",
    "Levels": {
      "0": "no",
      "1": "yes",
      "": "missed response"
    }
  },
  "rt": {
    "Description": "Response time of participant (relative to MSIT onset).",
    "Units": "seconds"
  },
  "time_elapsed": {
    "Description": "Response time relative to start of task",
    "Units": "seconds"
  },
  "trial_index": {
    "Description": "Trial number",
  },
  "trial_type": {
    "Description": "jsPsych plugin type"
  }
}
